File: Examples/athena.nor
# XDI/1.0 Demeter/0.9.26
# Demeter.output_filetype: multicolumn normalized mu(E)
# Element.symbol: V
# Element.edge: K
# Column.1: energy eV
# Column.2: JZP-4-merged
#------------------------
#  energy  JZP-4-merged
  5263.85       0.127374
  5273.85       0.102318
  5283.85       0.0811144
  5293.85       0.0615887
  5303.85       0.0471588
  5313.85       0.0352366
  5323.85       0.0253149
  5333.85       0.0184384
  5343.85       0.0120775
  5353.85       0.00749133
  5363.85       0.00410572
  5373.85       0.00190365
  5383.85       0.000335473
  5393.85      -0.000885183
  5403.85      -0.00137173
  5413.85      -0.00159118
  5423.85      -0.00109876
  5433.85      -0.000204686
  5434.1      -4.1707e-05
  5434.35      -7.42193e-06
  5434.6      -0.000137942
  5434.85       7.45965e-05
  5435.1      -7.24357e-05
  5435.35      -0.000176446
  5435.6       0.000271741
  5435.85      -0.000156971
  5436.1       9.12372e-05
  5436.35       0.000105224
  5436.6       0.000222034
  5436.85       0.000243557
  5437.1       0.000335631
  5437.35       0.000272518
  5437.6       0.000326216
  5437.85       0.000519931
  5438.1       0.000312632
  5438.35       0.000388984
  5438.6       0.000341043
  5438.85       0.000711179
  5439.1       0.000520697
  5439.35       0.000648501
  5439.6       0.000627976
  5439.85       0.000647646
  5440.1       0.000750088
  5440.35       0.000713776
  5440.6       0.000711289
  5440.85       0.000632863
  5441.1       0.000994494
  5441.35       0.00106051
  5441.6       0.00110343
  5441.85       0.00121532
  5442.1       0.00116117
  5442.35       0.0010642
  5442.6       0.00113099
  5442.85       0.00147415
  5443.1       0.00124452
  5443.35       0.00147174
  5443.6       0.00141084
  5443.85       0.00128448
  5444.1       0.00162117
  5444.35       0.00138053
  5444.6       0.00152372
  5444.85       0.00153861
  5445.1       0.0018384
  5445.35       0.00171041
  5445.6       0.00182112
  5445.85       0.00204991
  5446.1       0.00243451
  5446.35       0.00204639
  5446.6       0.00219953
  5446.85       0.00206949
  5447.1       0.00213947
  5447.35       0.00261185
  5447.6       0.00260872
  5447.85       0.00246092
  5448.1       0.00256427
  5448.35       0.00242215
  5448.6       0.00253713
  5448.85       0.00264502
  5449.1       0.0029002
  5449.35       0.00270253
  5449.6       0.00312336
  5449.85       0.00286006
  5450.1       0.00322918
  5450.35       0.00320887
  5450.6       0.00310561
  5450.85       0.00361355
  5451.1       0.0035005
  5451.35       0.00368516
  5451.6       0.00383964
  5451.85       0.00388116
  5452.1       0.00412562
  5452.35       0.00408044
  5452.6       0.00402637
  5452.85       0.00423616
  5453.1       0.00453636
  5453.35       0.00480215
  5453.6       0.00450301
  5453.85       0.00495946
  5454.1       0.00530334
  5454.35       0.00515518
  5454.6       0.00491207
  5454.85       0.00509613
  5455.1       0.00546057
  5455.35       0.00572516
  5455.6       0.00600014
  5455.85       0.00623062
  5456.1       0.0058971
  5456.35       0.00639536
  5456.6       0.00636184
  5456.85       0.00657451
  5457.1       0.00713475
  5457.35       0.00722331
  5457.6       0.007411
  5457.85       0.00776003
  5458.1       0.00780105
  5458.35       0.00808802
  5458.6       0.00829852
  5458.85       0.00865537
  5459.1       0.00877788
  5459.35       0.00929137
  5459.6       0.00936502
  5459.85       0.00994005
  5460.1       0.0101722
  5460.35       0.0103306
  5460.6       0.010813
  5460.85       0.0113415
  5461.1       0.0121456
  5461.35       0.0124242
  5461.6       0.013123
  5461.85       0.0132893
  5462.1       0.0141988
  5462.35       0.0148005
  5462.6       0.0152512
  5462.85       0.0162462
  5463.1       0.0171861
  5463.35       0.0180691
  5463.6       0.0190605
  5463.85       0.020429
  5464.1       0.0219234
  5464.35       0.0235939
  5464.6       0.0250322
  5464.85       0.0274768
  5465.1       0.0295477
  5465.35       0.0324439
  5465.6       0.0369279
  5465.85       0.0415759
  5466.1       0.0471202
  5466.35       0.0548642
  5466.6       0.066197
  5466.85       0.0812404
  5467.1       0.103967
  5467.35       0.136799
  5467.6       0.18073
  5467.85       0.245075
  5468.1       0.350051
  5468.35       0.498956
  5468.6       0.658751
  5468.85       0.72461
  5469.1       0.652734
  5469.35       0.551041
  5469.6       0.483062
  5469.85       0.415164
  5470.1       0.325978
  5470.35       0.241793
  5470.6       0.182044
  5470.85       0.143686
  5471.1       0.117781
  5471.35       0.103082
  5471.6       0.0953873
  5471.85       0.0919342
  5472.1       0.0935173
  5472.35       0.0974369
  5472.6       0.104298
  5472.85       0.1129
  5473.1       0.123521
  5473.35       0.134493
  5473.6       0.14667
  5473.85       0.158545
  5474.1       0.171756
  5474.35       0.187441
  5474.6       0.204985
  5474.85       0.226432
  5475.1       0.251243
  5475.35       0.277338
  5475.6       0.300177
  5475.85       0.319144
  5476.1       0.33622
  5476.35       0.351281
  5476.6       0.366471
  5476.85       0.380315
  5477.1       0.392523
  5477.35       0.404292
  5477.6       0.417726
  5477.85       0.429884
  5478.1       0.444828
  5478.35       0.458738
  5478.6       0.472725
  5478.85       0.491204
  5479.1       0.50929
  5479.35       0.531791
  5479.6       0.559359
  5479.85       0.591492
  5480.1       0.627442
  5480.35       0.669633
  5480.6       0.714667
  5480.85       0.764184
  5481.1       0.815801
  5481.35       0.869172
  5481.6       0.923114
  5481.85       0.972873
  5482.1        1.02037
  5482.35        1.05615
  5482.6        1.08612
  5482.85        1.10866
  5483.1        1.12228
  5483.35        1.13202
  5483.6        1.13874
  5483.85        1.14143
  5484.1        1.13962
  5484.35        1.13814
  5484.6        1.13319
  5484.85        1.12505
  5485.1        1.11428
  5485.35        1.10256
  5485.6        1.09214
  5485.85        1.07828
  5486.1        1.06886
  5486.35        1.05878
  5486.6        1.05084
  5486.85        1.04336
  5487.1        1.03851
  5487.35        1.03304
  5487.6        1.0337
  5487.85        1.03184
  5488.1        1.03283
  5488.35        1.03485
  5488.6        1.03682
  5488.85        1.0434
  5489.1        1.05331
  5489.35        1.06286
  5489.6        1.0738
  5489.85        1.09129
  5490.1        1.10535
  5490.35        1.12469
  5490.6        1.14145
  5490.85        1.16321
  5491.1        1.18353
  5491.35        1.2021
  5491.6        1.21694
  5491.85        1.231
  5492.1        1.2417
  5492.35        1.25189
  5492.6        1.25722
  5492.85        1.26165
  5493.1        1.267
  5493.35        1.26608
  5493.6        1.26655
  5493.85        1.26445
  5494.1        1.2651
  5494.35        1.26269
  5494.6        1.25967
  5494.85        1.25582
  5495.1        1.25144
  5495.35        1.24302
  5495.6        1.2372
  5495.85        1.22853
  5496.1        1.22009
  5496.35        1.20972
  5496.6        1.19893
  5496.85        1.18925
  5497.1        1.17956
  5497.35        1.16908
  5497.6        1.16039
  5497.85        1.14771
  5498.1        1.14141
  5498.35        1.1353
  5498.6        1.12729
  5498.85        1.12122
  5499.1        1.11461
  5499.35        1.11274
  5499.6        1.10565
  5499.85        1.10308
  5500.1        1.09915
  5500.35        1.09449
  5500.6        1.08946
  5500.85        1.08746
  5501.1        1.0828
  5501.35        1.08148
  5501.6        1.07601
  5501.85        1.07522
  5502.1        1.07075
  5502.35        1.06823
  5502.6        1.06429
  5502.85        1.06091
  5503.1        1.05719
  5503.35        1.05555
  5503.6        1.05458
  5503.85        1.05044
  5505.09        1.03819
  5506.36        1.03044
  5507.64        1.02194
  5508.94        1.00951
  5510.26       0.995613
  5511.6       0.984391
  5512.96       0.975723
  5514.34       0.966067
  5515.73       0.949523
  5517.15       0.941406
  5518.58       0.942798
  5520.04       0.948139
  5521.51       0.954808
  5523       0.964955
  5524.51       0.975532
  5526.04       0.980969
  5527.59       0.985417
  5529.16       0.985355
  5530.75       0.983447
  5532.35       0.985092
  5533.98       0.987205
  5535.62       0.988668
  5537.29       0.992429
  5538.97       0.997309
  5540.67       0.999953
  5542.39        1.00442
  5544.13        1.00827
  5545.89        1.01662
  5547.67        1.02417
  5549.47        1.02954
  5551.28        1.03322
  5553.12        1.03553
  5554.97        1.03408
  5556.84        1.03388
  5558.74        1.02939
  5560.65        1.02416
  5562.57        1.01762
  5564.52        1.01145
  5566.49        1.00385
  5568.48       0.998797
  5570.49       0.992107
  5572.51       0.990627
  5574.56       0.984887
  5576.62       0.982423
  5578.7       0.982277
  5580.8       0.981364
  5582.92       0.977805
  5585.07       0.977006
  5587.22       0.976487
  5589.4       0.976848
  5591.6       0.975516
  5593.81       0.973931
  5596.05       0.974093
  5598.3       0.972222
  5600.58       0.972465
  5602.87       0.973429
  5605.18       0.979065
  5607.51       0.978012
  5609.86       0.983458
  5612.23       0.986981
  5614.62       0.992875
  5617.02       0.996819
  5619.45        1.00139
  5621.89        1.00561
  5624.36        1.01172
  5626.84        1.01801
  5629.34        1.01945
  5631.86        1.02151
  5634.4        1.02268
  5636.96        1.02535
  5639.54        1.02551
  5642.13        1.02331
  5644.75        1.02408
  5647.39        1.02139
  5650.04        1.02069
  5652.71        1.01869
  5655.41        1.01609
  5658.12        1.01251
  5660.85        1.01159
  5663.6        1.00535
  5666.37        1.00241
  5669.16       0.998729
  5671.96       0.994502
  5674.79       0.991144
  5677.63       0.990525
  5680.49       0.988577
  5683.38       0.986645
  5686.28       0.986932
  5689.2       0.988295
  5692.14       0.989491
  5695.1       0.987236
  5698.08       0.991418
  5701.07       0.995708
  5704.09       0.999813
  5707.75        1.0048